{
  "resourceType": "Questionnaire",
  "id": "qs1",
  "contained": [
    {
      "resourceType": "ValueSet",
      "id": "vs2",
      "name": "Type options for DiagnosticOrder.subject",
      "description": "Type options for DiagnosticOrder.subject",
      "status": "active",
      "expansion": {
        "identifier": "urn:uuid:ac2e090a-20df-47c9-985d-4805d7897d71",
        "timestamp": "2015-07-24T17:36:16-04:00",
        "contains": [
          {
            "system": "http://hl7.org/fhir/resource-types",
            "code": "patient-qicore-qicore-patient",
            "display": "patient-qicore-qicore-patient"
          },
          {
            "system": "http://hl7.org/fhir/resource-types",
            "code": "Group",
            "display": "Group"
          },
          {
            "system": "http://hl7.org/fhir/resource-types",
            "code": "location-qicore-qicore-location",
            "display": "location-qicore-qicore-location"
          },
          {
            "system": "http://hl7.org/fhir/resource-types",
            "code": "device-qicore-qicore-device",
            "display": "device-qicore-qicore-device"
          }
        ]
      }
    },
    {
      "resourceType": "ValueSet",
      "id": "vs3",
      "name": "Type options for DiagnosticOrder.supportingInformation",
      "description": "Type options for DiagnosticOrder.supportingInformation",
      "status": "active",
      "expansion": {
        "identifier": "urn:uuid:3ccb24d7-de65-4bf5-921d-e05274738af3",
        "timestamp": "2015-07-24T17:36:16-04:00",
        "contains": [
          {
            "system": "http://hl7.org/fhir/resource-types",
            "code": "observation-qicore-qicore-observation",
            "display": "observation-qicore-qicore-observation"
          },
          {
            "system": "http://hl7.org/fhir/resource-types",
            "code": "condition-qicore-qicore-condition",
            "display": "condition-qicore-qicore-condition"
          },
          {
            "system": "http://hl7.org/fhir/resource-types",
            "code": "DocumentReference",
            "display": "DocumentReference"
          }
        ]
      }
    },
    {
      "resourceType": "ValueSet",
      "id": "vs4",
      "name": "Type options for DiagnosticOrder.event.actor",
      "description": "Type options for DiagnosticOrder.event.actor",
      "status": "active",
      "expansion": {
        "identifier": "urn:uuid:ccd8f403-912e-48b1-afc6-35ffb5ab9dab",
        "timestamp": "2015-07-24T17:36:16-04:00",
        "contains": [
          {
            "system": "http://hl7.org/fhir/resource-types",
            "code": "practitioner-qicore-qicore-practitioner",
            "display": "practitioner-qicore-qicore-practitioner"
          },
          {
            "system": "http://hl7.org/fhir/resource-types",
            "code": "device-qicore-qicore-device",
            "display": "device-qicore-qicore-device"
          }
        ]
      }
    },
    {
      "resourceType": "ValueSet",
      "id": "vs5",
      "name": "Type options for DiagnosticOrder.item.bodySite[x]",
      "description": "Type options for DiagnosticOrder.item.bodySite[x]",
      "status": "active",
      "expansion": {
        "identifier": "urn:uuid:0ed80838-8886-49d4-8598-a66f7cd7de7f",
        "timestamp": "2015-07-24T17:36:16-04:00",
        "contains": [
          {
            "system": "http://hl7.org/fhir/data-types",
            "code": "CodeableConcept",
            "display": "CodeableConcept"
          },
          {
            "system": "http://hl7.org/fhir/resource-types",
            "code": "bodysite-qicore-qicore-bodysite",
            "display": "bodysite-qicore-qicore-bodysite"
          }
        ]
      }
    }
  ],
  "identifier": [
    {
      "system": "urn:ietf:rfc:3986"
    }
  ],
  "status": "draft",
  "date": "2015-02-27T00:00:00-05:00",
  "publisher": "Health Level Seven International (Clinical Quality Information - QI-Core)",
  "group": {
    "extension": [
      {
        "url": "http://hl7.org/fhir/Profile/questionnaire-extensions#flyover",
        "valueString": "A record of a request for a diagnostic investigation service to be performed."
      }
    ],
    "linkId": "DiagnosticOrder",
    "title": "A request for a diagnostic service",
    "required": false,
    "repeats": true,
    "group": [
      {
        "extension": [
          {
            "url": "http://hl7.org/fhir/Profile/questionnaire-extensions#flyover",
            "valueString": "The logical id of the resource, as used in the url for the resource. Once assigned, this value never changes."
          },
          {
            "url": "http://www.healthintersections.com.au/fhir/Profile/metadata#type",
            "valueString": "string"
          }
        ],
        "linkId": "DiagnosticOrder.id",
        "required": false,
        "repeats": true,
        "question": [
          {
            "linkId": "DiagnosticOrder.id.value",
            "text": "Logical id of this artifact",
            "type": "string",
            "required": false,
            "repeats": false
          }
        ]
      },
      {
        "extension": [
          {
            "url": "http://hl7.org/fhir/Profile/questionnaire-extensions#flyover",
            "valueString": "The metadata about the resource. This is content that is maintained by the infrastructure. Changes to the content may not always be associated with version changes to the resource."
          }
        ],
        "linkId": "DiagnosticOrder.meta",
        "text": "Metadata about the resource",
        "required": false,
        "repeats": true
      },
      {
        "extension": [
          {
            "url": "http://hl7.org/fhir/Profile/questionnaire-extensions#flyover",
            "valueString": "A reference to a set of rules that were followed when the resource was constructed, and which must be understood when processing the content."
          },
          {
            "url": "http://www.healthintersections.com.au/fhir/Profile/metadata#type",
            "valueString": "uri"
          }
        ],
        "linkId": "DiagnosticOrder.implicitRules",
        "required": false,
        "repeats": true,
        "question": [
          {
            "linkId": "DiagnosticOrder.implicitRules.value",
            "text": "A set of rules under which this content was created",
            "type": "string",
            "required": false,
            "repeats": false
          }
        ]
      },
      {
        "extension": [
          {
            "url": "http://hl7.org/fhir/Profile/questionnaire-extensions#flyover",
            "valueString": "The base language in which the resource is written."
          },
          {
            "url": "http://www.healthintersections.com.au/fhir/Profile/metadata#type",
            "valueString": "code"
          }
        ],
        "linkId": "DiagnosticOrder.language",
        "required": false,
        "repeats": true,
        "question": [
          {
            "linkId": "DiagnosticOrder.language.value",
            "text": "language",
            "type": "choice",
            "required": false,
            "repeats": false
          }
        ]
      },
      {
        "extension": [
          {
            "url": "http://hl7.org/fhir/Profile/questionnaire-extensions#flyover",
            "valueString": "A human-readable narrative that contains a summary of the resource, and may be used to represent the content of the resource to a human. The narrative need not encode all the structured data, but is required to contain sufficient detail to make it \"clinically safe\" for a human to just read the narrative. Resource definitions may define what content should be represented in the narrative to ensure clinical safety."
          }
        ],
        "linkId": "DiagnosticOrder.text",
        "text": "Text summary of the resource, for human interpretation",
        "required": false,
        "repeats": true
      },
      {
        "extension": [
          {
            "url": "http://hl7.org/fhir/Profile/questionnaire-extensions#flyover",
            "valueString": "These resources do not have an independent existence apart from the resource that contains them - they cannot be identified independently, and nor can they have their own independent transaction scope."
          }
        ],
        "linkId": "DiagnosticOrder.contained",
        "text": "Contained, inline Resources",
        "required": false,
        "repeats": true
      },
      {
        "extension": [
          {
            "url": "http://hl7.org/fhir/Profile/questionnaire-extensions#flyover",
            "valueString": "An Extension"
          }
        ],
        "linkId": "DiagnosticOrder.extension",
        "text": "Extension",
        "required": false,
        "repeats": true
      },
      {
        "extension": [
          {
            "url": "http://hl7.org/fhir/Profile/questionnaire-extensions#flyover",
            "valueString": "May be used to represent additional information that is not part of the basic definition of the resource, and that modifies the understanding of the element that contains it. Usually modifier elements provide negation or qualification. In order to make the use of extensions safe and manageable, there is a strict set of governance applied to the definition and use of extensions. Though any implementer is allowed to define an extension, there is a set of requirements that SHALL be met as part of the definition of the extension. Applications processing a resource are required to check for modifier extensions."
          }
        ],
        "linkId": "DiagnosticOrder.modifierExtension",
        "text": "Extensions that cannot be ignored",
        "required": false,
        "repeats": true
      },
      {
        "extension": [
          {
            "url": "http://hl7.org/fhir/Profile/questionnaire-extensions#flyover",
            "valueString": "Who or what the investigation is to be performed on. This is usually a human patient, but diagnostic tests can also be requested on animals, groups of humans or animals, devices such as dialysis machines, or even locations (typically for environmental scans)."
          }
        ],
        "linkId": "DiagnosticOrder.subject",
        "text": "Who and/or what test is about",
        "required": true,
        "repeats": true,
        "question": [
          {
            "linkId": "DiagnosticOrder.subject._type",
            "text": "type",
            "type": "choice",
            "required": false,
            "repeats": false,
            "options": {
              "reference": "#vs2"
            },
            "group": [
              {
                "extension": [
                  {
                    "url": "http://www.healthintersections.com.au/fhir/Profile/metadata#type",
                    "valueString": "Reference"
                  }
                ],
                "linkId": "DiagnosticOrder.subject._patient-qicore-qicore-patient",
                "question": [
                  {
                    "extension": [
                      {
                        "url": "http://www.healthintersections.com.au/fhir/Profile/metadata#reference",
                        "valueString": "/patient-qicore-qicore-patient?subject=$subj&patient=$subj&encounter=$encounter"
                      }
                    ],
                    "linkId": "DiagnosticOrder.subject._patient-qicore-qicore-patient.value",
                    "text": "patient-qicore-qicore-patient",
                    "type": "reference",
                    "required": false,
                    "repeats": false
                  }
                ]
              },
              {
                "extension": [
                  {
                    "url": "http://www.healthintersections.com.au/fhir/Profile/metadata#type",
                    "valueString": "Reference"
                  }
                ],
                "linkId": "DiagnosticOrder.subject._Group",
                "question": [
                  {
                    "extension": [
                      {
                        "url": "http://www.healthintersections.com.au/fhir/Profile/metadata#reference",
                        "valueString": "/Group?subject=$subj&patient=$subj&encounter=$encounter"
                      }
                    ],
                    "linkId": "DiagnosticOrder.subject._Group.value",
                    "text": "Group",
                    "type": "reference",
                    "required": false,
                    "repeats": false
                  }
                ]
              },
              {
                "extension": [
                  {
                    "url": "http://www.healthintersections.com.au/fhir/Profile/metadata#type",
                    "valueString": "Reference"
                  }
                ],
                "linkId": "DiagnosticOrder.subject._location-qicore-qicore-location",
                "question": [
                  {
                    "extension": [
                      {
                        "url": "http://www.healthintersections.com.au/fhir/Profile/metadata#reference",
                        "valueString": "/location-qicore-qicore-location?subject=$subj&patient=$subj&encounter=$encounter"
                      }
                    ],
                    "linkId": "DiagnosticOrder.subject._location-qicore-qicore-location.value",
                    "text": "location-qicore-qicore-location",
                    "type": "reference",
                    "required": false,
                    "repeats": false
                  }
                ]
              },
              {
                "extension": [
                  {
                    "url": "http://www.healthintersections.com.au/fhir/Profile/metadata#type",
                    "valueString": "Reference"
                  }
                ],
                "linkId": "DiagnosticOrder.subject._device-qicore-qicore-device",
                "question": [
                  {
                    "extension": [
                      {
                        "url": "http://www.healthintersections.com.au/fhir/Profile/metadata#reference",
                        "valueString": "/device-qicore-qicore-device?subject=$subj&patient=$subj&encounter=$encounter"
                      }
                    ],
                    "linkId": "DiagnosticOrder.subject._device-qicore-qicore-device.value",
                    "text": "device-qicore-qicore-device",
                    "type": "reference",
                    "required": false,
                    "repeats": false
                  }
                ]
              }
            ]
          }
        ]
      },
      {
        "extension": [
          {
            "url": "http://hl7.org/fhir/Profile/questionnaire-extensions#flyover",
            "valueString": "The practitioner that holds legal responsibility for ordering the investigation."
          },
          {
            "url": "http://www.healthintersections.com.au/fhir/Profile/metadata#type",
            "valueString": "Reference"
          }
        ],
        "linkId": "DiagnosticOrder.orderer",
        "required": false,
        "repeats": true,
        "question": [
          {
            "extension": [
              {
                "url": "http://www.healthintersections.com.au/fhir/Profile/metadata#reference",
                "valueString": "/practitioner-qicore-qicore-practitioner?subject=$subj&patient=$subj&encounter=$encounter"
              }
            ],
            "linkId": "DiagnosticOrder.orderer.value",
            "text": "Who ordered the test",
            "type": "reference",
            "required": false,
            "repeats": false
          }
        ]
      },
      {
        "extension": [
          {
            "url": "http://hl7.org/fhir/Profile/questionnaire-extensions#flyover",
            "valueString": "Identifiers assigned to this order by the orderer and/or  the receiver and/or order fulfiller."
          },
          {
            "url": "http://www.healthintersections.com.au/fhir/Profile/metadata#type",
            "valueString": "Identifier"
          }
        ],
        "linkId": "DiagnosticOrder.identifier",
        "text": "Identifiers assigned to this order",
        "required": false,
        "repeats": true,
        "question": [
          {
            "linkId": "DiagnosticOrder.identifier.label",
            "text": "label:",
            "type": "string",
            "required": false,
            "repeats": false
          },
          {
            "linkId": "DiagnosticOrder.identifier.system",
            "text": "system:",
            "type": "string",
            "required": false,
            "repeats": false
          },
          {
            "linkId": "DiagnosticOrder.identifier.value",
            "text": "value:",
            "type": "string",
            "required": false,
            "repeats": false
          }
        ]
      },
      {
        "extension": [
          {
            "url": "http://hl7.org/fhir/Profile/questionnaire-extensions#flyover",
            "valueString": "An encounter that provides additional information about the healthcare context in which this request is made."
          },
          {
            "url": "http://www.healthintersections.com.au/fhir/Profile/metadata#type",
            "valueString": "Reference"
          }
        ],
        "linkId": "DiagnosticOrder.encounter",
        "required": false,
        "repeats": true,
        "question": [
          {
            "extension": [
              {
                "url": "http://www.healthintersections.com.au/fhir/Profile/metadata#reference",
                "valueString": "/encounter-qicore-qicore-encounter?subject=$subj&patient=$subj&encounter=$encounter"
              }
            ],
            "linkId": "DiagnosticOrder.encounter.value",
            "text": "The encounter that this diagnostic order is associated with",
            "type": "reference",
            "required": false,
            "repeats": false
          }
        ]
      },
      {
        "extension": [
          {
            "url": "http://hl7.org/fhir/Profile/questionnaire-extensions#flyover",
            "valueString": "An explanation or justification for why this diagnostic investigation is being requested."
          },
          {
            "url": "http://www.healthintersections.com.au/fhir/Profile/metadata#type",
            "valueString": "string"
          }
        ],
        "linkId": "DiagnosticOrder.clinicalNotes",
        "required": false,
        "repeats": true,
        "question": [
          {
            "linkId": "DiagnosticOrder.clinicalNotes.value",
            "text": "Explanation/Justification for test",
            "type": "string",
            "required": false,
            "repeats": false
          }
        ]
      },
      {
        "extension": [
          {
            "url": "http://hl7.org/fhir/Profile/questionnaire-extensions#flyover",
            "valueString": "Additional clinical information about the patient or specimen that may influence test interpretations."
          }
        ],
        "linkId": "DiagnosticOrder.supportingInformation",
        "text": "Additional clinical information",
        "required": false,
        "repeats": true,
        "question": [
          {
            "linkId": "DiagnosticOrder.supportingInformation._type",
            "text": "type",
            "type": "choice",
            "required": false,
            "repeats": false,
            "options": {
              "reference": "#vs3"
            },
            "group": [
              {
                "extension": [
                  {
                    "url": "http://www.healthintersections.com.au/fhir/Profile/metadata#type",
                    "valueString": "Reference"
                  }
                ],
                "linkId": "DiagnosticOrder.supportingInformation._observation-qicore-qicore-observation",
                "question": [
                  {
                    "extension": [
                      {
                        "url": "http://www.healthintersections.com.au/fhir/Profile/metadata#reference",
                        "valueString": "/observation-qicore-qicore-observation?subject=$subj&patient=$subj&encounter=$encounter"
                      }
                    ],
                    "linkId": "DiagnosticOrder.supportingInformation._observation-qicore-qicore-observation.value",
                    "text": "observation-qicore-qicore-observation",
                    "type": "reference",
                    "required": false,
                    "repeats": false
                  }
                ]
              },
              {
                "extension": [
                  {
                    "url": "http://www.healthintersections.com.au/fhir/Profile/metadata#type",
                    "valueString": "Reference"
                  }
                ],
                "linkId": "DiagnosticOrder.supportingInformation._condition-qicore-qicore-condition",
                "question": [
                  {
                    "extension": [
                      {
                        "url": "http://www.healthintersections.com.au/fhir/Profile/metadata#reference",
                        "valueString": "/condition-qicore-qicore-condition?subject=$subj&patient=$subj&encounter=$encounter"
                      }
                    ],
                    "linkId": "DiagnosticOrder.supportingInformation._condition-qicore-qicore-condition.value",
                    "text": "condition-qicore-qicore-condition",
                    "type": "reference",
                    "required": false,
                    "repeats": false
                  }
                ]
              },
              {
                "extension": [
                  {
                    "url": "http://www.healthintersections.com.au/fhir/Profile/metadata#type",
                    "valueString": "Reference"
                  }
                ],
                "linkId": "DiagnosticOrder.supportingInformation._DocumentReference",
                "question": [
                  {
                    "extension": [
                      {
                        "url": "http://www.healthintersections.com.au/fhir/Profile/metadata#reference",
                        "valueString": "/DocumentReference?subject=$subj&patient=$subj&encounter=$encounter"
                      }
                    ],
                    "linkId": "DiagnosticOrder.supportingInformation._DocumentReference.value",
                    "text": "DocumentReference",
                    "type": "reference",
                    "required": false,
                    "repeats": false
                  }
                ]
              }
            ]
          }
        ]
      },
      {
        "extension": [
          {
            "url": "http://hl7.org/fhir/Profile/questionnaire-extensions#flyover",
            "valueString": "One or more specimens that the diagnostic investigation is about."
          },
          {
            "url": "http://www.healthintersections.com.au/fhir/Profile/metadata#type",
            "valueString": "Reference"
          }
        ],
        "linkId": "DiagnosticOrder.specimen",
        "required": false,
        "repeats": true,
        "question": [
          {
            "extension": [
              {
                "url": "http://www.healthintersections.com.au/fhir/Profile/metadata#reference",
                "valueString": "/specimen-qicore-qicore-specimen?subject=$subj&patient=$subj&encounter=$encounter"
              }
            ],
            "linkId": "DiagnosticOrder.specimen.value",
            "text": "If the whole order relates to specific specimens",
            "type": "reference",
            "required": false,
            "repeats": false
          }
        ]
      },
      {
        "extension": [
          {
            "url": "http://hl7.org/fhir/Profile/questionnaire-extensions#flyover",
            "valueString": "The status of the order."
          },
          {
            "url": "http://www.healthintersections.com.au/fhir/Profile/metadata#type",
            "valueString": "code"
          }
        ],
        "linkId": "DiagnosticOrder.status",
        "required": false,
        "repeats": true,
        "question": [
          {
            "linkId": "DiagnosticOrder.status.value",
            "text": "status",
            "type": "choice",
            "required": false,
            "repeats": false
          }
        ]
      },
      {
        "extension": [
          {
            "url": "http://hl7.org/fhir/Profile/questionnaire-extensions#flyover",
            "valueString": "The clinical priority associated with this order."
          },
          {
            "url": "http://www.healthintersections.com.au/fhir/Profile/metadata#type",
            "valueString": "code"
          }
        ],
        "linkId": "DiagnosticOrder.priority",
        "required": false,
        "repeats": true,
        "question": [
          {
            "linkId": "DiagnosticOrder.priority.value",
            "text": "priority",
            "type": "choice",
            "required": false,
            "repeats": false
          }
        ]
      },
      {
        "extension": [
          {
            "url": "http://hl7.org/fhir/Profile/questionnaire-extensions#flyover",
            "valueString": "A summary of the events of interest that have occurred as the request is processed. E.g. when the order was made, various processing steps (specimens received), when it was completed."
          }
        ],
        "linkId": "DiagnosticOrder.event",
        "title": "A list of events of interest in the lifecycle",
        "required": false,
        "repeats": true,
        "group": [
          {
            "extension": [
              {
                "url": "http://hl7.org/fhir/Profile/questionnaire-extensions#flyover",
                "valueString": "unique id for the element within a resource (for internal references)."
              },
              {
                "url": "http://www.healthintersections.com.au/fhir/Profile/metadata#type",
                "valueString": "string"
              }
            ],
            "linkId": "DiagnosticOrder.event.id",
            "required": false,
            "repeats": true,
            "question": [
              {
                "linkId": "DiagnosticOrder.event.id.value",
                "text": "xml:id (or equivalent in JSON)",
                "type": "string",
                "required": false,
                "repeats": false
              }
            ]
          },
          {
            "extension": [
              {
                "url": "http://hl7.org/fhir/Profile/questionnaire-extensions#flyover",
                "valueString": "May be used to represent additional information that is not part of the basic definition of the element. In order to make the use of extensions safe and manageable, there is a strict set of governance  applied to the definition and use of extensions. Though any implementer is allowed to define an extension, there is a set of requirements that SHALL be met as part of the definition of the extension."
              }
            ],
            "linkId": "DiagnosticOrder.event.extension",
            "text": "Additional Content defined by implementations",
            "required": false,
            "repeats": true
          },
          {
            "extension": [
              {
                "url": "http://hl7.org/fhir/Profile/questionnaire-extensions#flyover",
                "valueString": "May be used to represent additional information that is not part of the basic definition of the element, and that modifies the understanding of the element that contains it. Usually modifier elements provide negation or qualification. In order to make the use of extensions safe and manageable, there is a strict set of governance applied to the definition and use of extensions. Though any implementer is allowed to define an extension, there is a set of requirements that SHALL be met as part of the definition of the extension. Applications processing a resource are required to check for modifier extensions."
              }
            ],
            "linkId": "DiagnosticOrder.event.modifierExtension",
            "text": "Extensions that cannot be ignored",
            "required": false,
            "repeats": true
          },
          {
            "extension": [
              {
                "url": "http://hl7.org/fhir/Profile/questionnaire-extensions#flyover",
                "valueString": "The status for the event."
              },
              {
                "url": "http://www.healthintersections.com.au/fhir/Profile/metadata#type",
                "valueString": "code"
              }
            ],
            "linkId": "DiagnosticOrder.event.status",
            "required": true,
            "repeats": true,
            "question": [
              {
                "linkId": "DiagnosticOrder.event.status.value",
                "text": "status",
                "type": "choice",
                "required": false,
                "repeats": false
              }
            ]
          },
          {
            "extension": [
              {
                "url": "http://hl7.org/fhir/Profile/questionnaire-extensions#flyover",
                "valueString": "Additional information about the event that occurred - e.g. if the status remained unchanged."
              },
              {
                "url": "http://www.healthintersections.com.au/fhir/Profile/metadata#type",
                "valueString": "CodeableConcept"
              }
            ],
            "linkId": "DiagnosticOrder.event.description",
            "text": "More information about the event and its context",
            "required": false,
            "repeats": true,
            "question": [
              {
                "linkId": "DiagnosticOrder.event.description.coding",
                "text": "code:",
                "type": "open-choice",
                "required": false,
                "repeats": false
              },
              {
                "linkId": "DiagnosticOrder.event.description.text",
                "text": "text:",
                "type": "string",
                "required": false,
                "repeats": false
              }
            ]
          },
          {
            "extension": [
              {
                "url": "http://hl7.org/fhir/Profile/questionnaire-extensions#flyover",
                "valueString": "The date/time at which the event occurred."
              },
              {
                "url": "http://www.healthintersections.com.au/fhir/Profile/metadata#type",
                "valueString": "datetime"
              }
            ],
            "linkId": "DiagnosticOrder.event.dateTime",
            "required": true,
            "repeats": true,
            "question": [
              {
                "linkId": "DiagnosticOrder.event.dateTime.value",
                "text": "The date at which the event happened",
                "type": "dateTime",
                "required": false,
                "repeats": false
              }
            ]
          },
          {
            "extension": [
              {
                "url": "http://hl7.org/fhir/Profile/questionnaire-extensions#flyover",
                "valueString": "The person who was responsible for performing or recording the action."
              }
            ],
            "linkId": "DiagnosticOrder.event.actor",
            "text": "Who recorded or did this",
            "required": false,
            "repeats": true,
            "question": [
              {
                "linkId": "DiagnosticOrder.event.actor._type",
                "text": "type",
                "type": "choice",
                "required": false,
                "repeats": false,
                "options": {
                  "reference": "#vs4"
                },
                "group": [
                  {
                    "extension": [
                      {
                        "url": "http://www.healthintersections.com.au/fhir/Profile/metadata#type",
                        "valueString": "Reference"
                      }
                    ],
                    "linkId": "DiagnosticOrder.event.actor._practitioner-qicore-qicore-practitioner",
                    "question": [
                      {
                        "extension": [
                          {
                            "url": "http://www.healthintersections.com.au/fhir/Profile/metadata#reference",
                            "valueString": "/practitioner-qicore-qicore-practitioner?subject=$subj&patient=$subj&encounter=$encounter"
                          }
                        ],
                        "linkId": "DiagnosticOrder.event.actor._practitioner-qicore-qicore-practitioner.value",
                        "text": "practitioner-qicore-qicore-practitioner",
                        "type": "reference",
                        "required": false,
                        "repeats": false
                      }
                    ]
                  },
                  {
                    "extension": [
                      {
                        "url": "http://www.healthintersections.com.au/fhir/Profile/metadata#type",
                        "valueString": "Reference"
                      }
                    ],
                    "linkId": "DiagnosticOrder.event.actor._device-qicore-qicore-device",
                    "question": [
                      {
                        "extension": [
                          {
                            "url": "http://www.healthintersections.com.au/fhir/Profile/metadata#reference",
                            "valueString": "/device-qicore-qicore-device?subject=$subj&patient=$subj&encounter=$encounter"
                          }
                        ],
                        "linkId": "DiagnosticOrder.event.actor._device-qicore-qicore-device.value",
                        "text": "device-qicore-qicore-device",
                        "type": "reference",
                        "required": false,
                        "repeats": false
                      }
                    ]
                  }
                ]
              }
            ]
          }
        ]
      },
      {
        "extension": [
          {
            "url": "http://hl7.org/fhir/Profile/questionnaire-extensions#flyover",
            "valueString": "The specific diagnostic investigations that are requested as part of this request. Sometimes, there can only be one item per request, but in most contexts, more than one investigation can be requested."
          }
        ],
        "linkId": "DiagnosticOrder.item",
        "title": "The items the orderer requested",
        "required": false,
        "repeats": true,
        "group": [
          {
            "extension": [
              {
                "url": "http://hl7.org/fhir/Profile/questionnaire-extensions#flyover",
                "valueString": "unique id for the element within a resource (for internal references)."
              },
              {
                "url": "http://www.healthintersections.com.au/fhir/Profile/metadata#type",
                "valueString": "string"
              }
            ],
            "linkId": "DiagnosticOrder.item.id",
            "required": false,
            "repeats": true,
            "question": [
              {
                "linkId": "DiagnosticOrder.item.id.value",
                "text": "xml:id (or equivalent in JSON)",
                "type": "string",
                "required": false,
                "repeats": false
              }
            ]
          },
          {
            "extension": [
              {
                "url": "http://hl7.org/fhir/Profile/questionnaire-extensions#flyover",
                "valueString": "An Extension"
              }
            ],
            "linkId": "DiagnosticOrder.item.extension",
            "text": "Extension",
            "required": false,
            "repeats": true
          },
          {
            "extension": [
              {
                "url": "http://hl7.org/fhir/Profile/questionnaire-extensions#flyover",
                "valueString": "May be used to represent additional information that is not part of the basic definition of the element, and that modifies the understanding of the element that contains it. Usually modifier elements provide negation or qualification. In order to make the use of extensions safe and manageable, there is a strict set of governance applied to the definition and use of extensions. Though any implementer is allowed to define an extension, there is a set of requirements that SHALL be met as part of the definition of the extension. Applications processing a resource are required to check for modifier extensions."
              }
            ],
            "linkId": "DiagnosticOrder.item.modifierExtension",
            "text": "Extensions that cannot be ignored",
            "required": false,
            "repeats": true
          },
          {
            "extension": [
              {
                "url": "http://hl7.org/fhir/Profile/questionnaire-extensions#flyover",
                "valueString": "A code that identifies a particular diagnostic investigation, or panel of investigations, that have been requested."
              },
              {
                "url": "http://www.healthintersections.com.au/fhir/Profile/metadata#type",
                "valueString": "CodeableConcept"
              }
            ],
            "linkId": "DiagnosticOrder.item.code",
            "text": "Code to indicate the item (test or panel) being ordered",
            "required": true,
            "repeats": true,
            "question": [
              {
                "linkId": "DiagnosticOrder.item.code.coding",
                "text": "code:",
                "type": "open-choice",
                "required": false,
                "repeats": false
              },
              {
                "linkId": "DiagnosticOrder.item.code.text",
                "text": "text:",
                "type": "string",
                "required": false,
                "repeats": false
              }
            ]
          },
          {
            "extension": [
              {
                "url": "http://hl7.org/fhir/Profile/questionnaire-extensions#flyover",
                "valueString": "If the item is related to a specific specimen."
              },
              {
                "url": "http://www.healthintersections.com.au/fhir/Profile/metadata#type",
                "valueString": "Reference"
              }
            ],
            "linkId": "DiagnosticOrder.item.specimen",
            "required": false,
            "repeats": true,
            "question": [
              {
                "extension": [
                  {
                    "url": "http://www.healthintersections.com.au/fhir/Profile/metadata#reference",
                    "valueString": "/specimen-qicore-qicore-specimen?subject=$subj&patient=$subj&encounter=$encounter"
                  }
                ],
                "linkId": "DiagnosticOrder.item.specimen.value",
                "text": "If this item relates to specific specimens",
                "type": "reference",
                "required": false,
                "repeats": false
              }
            ]
          },
          {
            "extension": [
              {
                "url": "http://hl7.org/fhir/Profile/questionnaire-extensions#flyover",
                "valueString": "Anatomical location where the request test should be performed.  This is the target site."
              }
            ],
            "linkId": "DiagnosticOrder.item.bodySite[x]",
            "text": "Location of requested test (if applicable)",
            "required": false,
            "repeats": true,
            "question": [
              {
                "linkId": "DiagnosticOrder.item.bodySite[x]._type",
                "text": "type",
                "type": "choice",
                "required": false,
                "repeats": false,
                "options": {
                  "reference": "#vs5"
                },
                "group": [
                  {
                    "extension": [
                      {
                        "url": "http://www.healthintersections.com.au/fhir/Profile/metadata#type",
                        "valueString": "CodeableConcept"
                      }
                    ],
                    "linkId": "DiagnosticOrder.item.bodySite[x]._CodeableConcept",
                    "text": "CodeableConcept",
                    "question": [
                      {
                        "linkId": "DiagnosticOrder.item.bodySite[x]._CodeableConcept.coding",
                        "text": "code:",
                        "type": "open-choice",
                        "required": false,
                        "repeats": false
                      },
                      {
                        "linkId": "DiagnosticOrder.item.bodySite[x]._CodeableConcept.text",
                        "text": "text:",
                        "type": "string",
                        "required": false,
                        "repeats": false
                      }
                    ]
                  },
                  {
                    "extension": [
                      {
                        "url": "http://www.healthintersections.com.au/fhir/Profile/metadata#type",
                        "valueString": "Reference"
                      }
                    ],
                    "linkId": "DiagnosticOrder.item.bodySite[x]._bodysite-qicore-qicore-bodysite",
                    "question": [
                      {
                        "extension": [
                          {
                            "url": "http://www.healthintersections.com.au/fhir/Profile/metadata#reference",
                            "valueString": "/bodysite-qicore-qicore-bodysite?subject=$subj&patient=$subj&encounter=$encounter"
                          }
                        ],
                        "linkId": "DiagnosticOrder.item.bodySite[x]._bodysite-qicore-qicore-bodysite.value",
                        "text": "bodysite-qicore-qicore-bodysite",
                        "type": "reference",
                        "required": false,
                        "repeats": false
                      }
                    ]
                  }
                ]
              }
            ]
          },
          {
            "extension": [
              {
                "url": "http://hl7.org/fhir/Profile/questionnaire-extensions#flyover",
                "valueString": "The status of this individual item within the order."
              },
              {
                "url": "http://www.healthintersections.com.au/fhir/Profile/metadata#type",
                "valueString": "code"
              }
            ],
            "linkId": "DiagnosticOrder.item.status",
            "required": false,
            "repeats": true,
            "question": [
              {
                "linkId": "DiagnosticOrder.item.status.value",
                "text": "status",
                "type": "choice",
                "required": false,
                "repeats": false
              }
            ]
          },
          {
            "extension": [
              {
                "url": "http://hl7.org/fhir/Profile/questionnaire-extensions#flyover",
                "valueString": "A summary of the events of interest that have occurred as this item of the request is processed."
              }
            ],
            "linkId": "DiagnosticOrder.item.event",
            "title": "Events specific to this item",
            "required": false,
            "repeats": true
          }
        ]
      }
    ]
  }
}