{
  "resourceType": "Questionnaire",
  "id": "qs1",
  "contained": [
    {
      "resourceType": "ValueSet",
      "id": "vs2",
      "name": "Type options for ReferralRequest.requester",
      "description": "Type options for ReferralRequest.requester",
      "status": "active",
      "expansion": {
        "identifier": "urn:uuid:2ab8ae63-4023-4680-ba77-0b988a8c67de",
        "timestamp": "2015-07-27T18:54:11-04:00",
        "contains": [
          {
            "system": "http://hl7.org/fhir/resource-types",
            "code": "practitioner-qicore-qicore-practitioner",
            "display": "practitioner-qicore-qicore-practitioner"
          },
          {
            "system": "http://hl7.org/fhir/resource-types",
            "code": "organization-qicore-qicore-organization",
            "display": "organization-qicore-qicore-organization"
          },
          {
            "system": "http://hl7.org/fhir/resource-types",
            "code": "patient-qicore-qicore-patient",
            "display": "patient-qicore-qicore-patient"
          }
        ]
      }
    },
    {
      "resourceType": "ValueSet",
      "id": "vs3",
      "name": "Type options for ReferralRequest.recipient",
      "description": "Type options for ReferralRequest.recipient",
      "status": "active",
      "expansion": {
        "identifier": "urn:uuid:6f97487d-0003-456f-bc1f-5fae2c4d5d8a",
        "timestamp": "2015-07-27T18:54:11-04:00",
        "contains": [
          {
            "system": "http://hl7.org/fhir/resource-types",
            "code": "practitioner-qicore-qicore-practitioner",
            "display": "practitioner-qicore-qicore-practitioner"
          },
          {
            "system": "http://hl7.org/fhir/resource-types",
            "code": "organization-qicore-qicore-organization",
            "display": "organization-qicore-qicore-organization"
          }
        ]
      }
    }
  ],
  "identifier": [
    {
      "system": "urn:ietf:rfc:3986"
    }
  ],
  "status": "draft",
  "date": "2015-02-27T00:00:00-05:00",
  "publisher": "Health Level Seven International (Clinical Quality Information - QI-Core)",
  "group": {
    "extension": [
      {
        "url": "http://hl7.org/fhir/Profile/questionnaire-extensions#flyover",
        "valueString": "Used to record and send details about a request for referral service or transfer of a patient to the care of another provider or provider organisation."
      }
    ],
    "linkId": "ReferralRequest",
    "title": "A request for referral or transfer of care",
    "required": false,
    "repeats": true,
    "group": [
      {
        "extension": [
          {
            "url": "http://hl7.org/fhir/Profile/questionnaire-extensions#flyover",
            "valueString": "The logical id of the resource, as used in the url for the resource. Once assigned, this value never changes."
          },
          {
            "url": "http://www.healthintersections.com.au/fhir/Profile/metadata#type",
            "valueString": "string"
          }
        ],
        "linkId": "ReferralRequest.id",
        "required": false,
        "repeats": true,
        "question": [
          {
            "linkId": "ReferralRequest.id.value",
            "text": "Logical id of this artifact",
            "type": "string",
            "required": false,
            "repeats": false
          }
        ]
      },
      {
        "extension": [
          {
            "url": "http://hl7.org/fhir/Profile/questionnaire-extensions#flyover",
            "valueString": "The metadata about the resource. This is content that is maintained by the infrastructure. Changes to the content may not always be associated with version changes to the resource."
          }
        ],
        "linkId": "ReferralRequest.meta",
        "text": "Metadata about the resource",
        "required": false,
        "repeats": true
      },
      {
        "extension": [
          {
            "url": "http://hl7.org/fhir/Profile/questionnaire-extensions#flyover",
            "valueString": "A reference to a set of rules that were followed when the resource was constructed, and which must be understood when processing the content."
          },
          {
            "url": "http://www.healthintersections.com.au/fhir/Profile/metadata#type",
            "valueString": "uri"
          }
        ],
        "linkId": "ReferralRequest.implicitRules",
        "required": false,
        "repeats": true,
        "question": [
          {
            "linkId": "ReferralRequest.implicitRules.value",
            "text": "A set of rules under which this content was created",
            "type": "string",
            "required": false,
            "repeats": false
          }
        ]
      },
      {
        "extension": [
          {
            "url": "http://hl7.org/fhir/Profile/questionnaire-extensions#flyover",
            "valueString": "The base language in which the resource is written."
          },
          {
            "url": "http://www.healthintersections.com.au/fhir/Profile/metadata#type",
            "valueString": "code"
          }
        ],
        "linkId": "ReferralRequest.language",
        "required": false,
        "repeats": true,
        "question": [
          {
            "linkId": "ReferralRequest.language.value",
            "text": "language",
            "type": "choice",
            "required": false,
            "repeats": false
          }
        ]
      },
      {
        "extension": [
          {
            "url": "http://hl7.org/fhir/Profile/questionnaire-extensions#flyover",
            "valueString": "A human-readable narrative that contains a summary of the resource, and may be used to represent the content of the resource to a human. The narrative need not encode all the structured data, but is required to contain sufficient detail to make it \"clinically safe\" for a human to just read the narrative. Resource definitions may define what content should be represented in the narrative to ensure clinical safety."
          }
        ],
        "linkId": "ReferralRequest.text",
        "text": "Text summary of the resource, for human interpretation",
        "required": false,
        "repeats": true
      },
      {
        "extension": [
          {
            "url": "http://hl7.org/fhir/Profile/questionnaire-extensions#flyover",
            "valueString": "These resources do not have an independent existence apart from the resource that contains them - they cannot be identified independently, and nor can they have their own independent transaction scope."
          }
        ],
        "linkId": "ReferralRequest.contained",
        "text": "Contained, inline Resources",
        "required": false,
        "repeats": true
      },
      {
        "extension": [
          {
            "url": "http://hl7.org/fhir/Profile/questionnaire-extensions#flyover",
            "valueString": "An Extension"
          }
        ],
        "linkId": "ReferralRequest.extension",
        "text": "Extension",
        "required": false,
        "repeats": true
      },
      {
        "extension": [
          {
            "url": "http://hl7.org/fhir/Profile/questionnaire-extensions#flyover",
            "valueString": "May be used to represent additional information that is not part of the basic definition of the resource, and that modifies the understanding of the element that contains it. Usually modifier elements provide negation or qualification. In order to make the use of extensions safe and manageable, there is a strict set of governance applied to the definition and use of extensions. Though any implementer is allowed to define an extension, there is a set of requirements that SHALL be met as part of the definition of the extension. Applications processing a resource are required to check for modifier extensions."
          }
        ],
        "linkId": "ReferralRequest.modifierExtension",
        "text": "Extensions that cannot be ignored",
        "required": false,
        "repeats": true
      },
      {
        "extension": [
          {
            "url": "http://hl7.org/fhir/Profile/questionnaire-extensions#flyover",
            "valueString": "The workflow status of the referral or transfer of care request."
          },
          {
            "url": "http://www.healthintersections.com.au/fhir/Profile/metadata#type",
            "valueString": "code"
          }
        ],
        "linkId": "ReferralRequest.status",
        "required": true,
        "repeats": true,
        "question": [
          {
            "linkId": "ReferralRequest.status.value",
            "text": "status",
            "type": "choice",
            "required": false,
            "repeats": false
          }
        ]
      },
      {
        "extension": [
          {
            "url": "http://hl7.org/fhir/Profile/questionnaire-extensions#flyover",
            "valueString": "Business Id that uniquely identifies the referral/care transfer request instance."
          },
          {
            "url": "http://www.healthintersections.com.au/fhir/Profile/metadata#type",
            "valueString": "Identifier"
          }
        ],
        "linkId": "ReferralRequest.identifier",
        "text": "Identifier of request",
        "required": false,
        "repeats": true,
        "question": [
          {
            "linkId": "ReferralRequest.identifier.label",
            "text": "label:",
            "type": "string",
            "required": false,
            "repeats": false
          },
          {
            "linkId": "ReferralRequest.identifier.system",
            "text": "system:",
            "type": "string",
            "required": false,
            "repeats": false
          },
          {
            "linkId": "ReferralRequest.identifier.value",
            "text": "value:",
            "type": "string",
            "required": false,
            "repeats": false
          }
        ]
      },
      {
        "extension": [
          {
            "url": "http://hl7.org/fhir/Profile/questionnaire-extensions#flyover",
            "valueString": "An indication of the type of referral (or where applicable the type of transfer of care) request."
          },
          {
            "url": "http://www.healthintersections.com.au/fhir/Profile/metadata#type",
            "valueString": "CodeableConcept"
          }
        ],
        "linkId": "ReferralRequest.type",
        "text": "Referral/Transition of care request type",
        "required": false,
        "repeats": true,
        "question": [
          {
            "linkId": "ReferralRequest.type.coding",
            "text": "code:",
            "type": "open-choice",
            "required": false,
            "repeats": false
          },
          {
            "linkId": "ReferralRequest.type.text",
            "text": "text:",
            "type": "string",
            "required": false,
            "repeats": false
          }
        ]
      },
      {
        "extension": [
          {
            "url": "http://hl7.org/fhir/Profile/questionnaire-extensions#flyover",
            "valueString": "Indication of the clinical domain or discipline to which the referral or transfer of care request is sent."
          },
          {
            "url": "http://www.healthintersections.com.au/fhir/Profile/metadata#type",
            "valueString": "CodeableConcept"
          }
        ],
        "linkId": "ReferralRequest.specialty",
        "text": "The clinical specialty (discipline) that the referral is requested for",
        "required": false,
        "repeats": true,
        "question": [
          {
            "linkId": "ReferralRequest.specialty.coding",
            "text": "code:",
            "type": "open-choice",
            "required": false,
            "repeats": false
          },
          {
            "linkId": "ReferralRequest.specialty.text",
            "text": "text:",
            "type": "string",
            "required": false,
            "repeats": false
          }
        ]
      },
      {
        "extension": [
          {
            "url": "http://hl7.org/fhir/Profile/questionnaire-extensions#flyover",
            "valueString": "An indication of the urgency of referral (or where applicable the type of transfer of care) request."
          },
          {
            "url": "http://www.healthintersections.com.au/fhir/Profile/metadata#type",
            "valueString": "CodeableConcept"
          }
        ],
        "linkId": "ReferralRequest.priority",
        "text": "Urgency of referral / transfer of care request",
        "required": false,
        "repeats": true,
        "question": [
          {
            "linkId": "ReferralRequest.priority.coding",
            "text": "code:",
            "type": "open-choice",
            "required": false,
            "repeats": false
          },
          {
            "linkId": "ReferralRequest.priority.text",
            "text": "text:",
            "type": "string",
            "required": false,
            "repeats": false
          }
        ]
      },
      {
        "extension": [
          {
            "url": "http://hl7.org/fhir/Profile/questionnaire-extensions#flyover",
            "valueString": "The patient who is the subject of a referral or transfer of care request."
          },
          {
            "url": "http://www.healthintersections.com.au/fhir/Profile/metadata#type",
            "valueString": "Reference"
          }
        ],
        "linkId": "ReferralRequest.patient",
        "required": false,
        "repeats": true,
        "question": [
          {
            "extension": [
              {
                "url": "http://www.healthintersections.com.au/fhir/Profile/metadata#reference",
                "valueString": "/patient-qicore-qicore-patient?subject=$subj&patient=$subj&encounter=$encounter"
              }
            ],
            "linkId": "ReferralRequest.patient.value",
            "text": "Patient referred to care or transfer",
            "type": "reference",
            "required": false,
            "repeats": false
          }
        ]
      },
      {
        "extension": [
          {
            "url": "http://hl7.org/fhir/Profile/questionnaire-extensions#flyover",
            "valueString": "The healthcare provider or provider organization who/which initaited the referral/transfer of care request. Can also be  Patient (a self referral)."
          }
        ],
        "linkId": "ReferralRequest.requester",
        "text": "Requester of referral / transfer of care",
        "required": false,
        "repeats": true,
        "question": [
          {
            "linkId": "ReferralRequest.requester._type",
            "text": "type",
            "type": "choice",
            "required": false,
            "repeats": false,
            "options": {
              "reference": "#vs2"
            },
            "group": [
              {
                "extension": [
                  {
                    "url": "http://www.healthintersections.com.au/fhir/Profile/metadata#type",
                    "valueString": "Reference"
                  }
                ],
                "linkId": "ReferralRequest.requester._practitioner-qicore-qicore-practitioner",
                "question": [
                  {
                    "extension": [
                      {
                        "url": "http://www.healthintersections.com.au/fhir/Profile/metadata#reference",
                        "valueString": "/practitioner-qicore-qicore-practitioner?subject=$subj&patient=$subj&encounter=$encounter"
                      }
                    ],
                    "linkId": "ReferralRequest.requester._practitioner-qicore-qicore-practitioner.value",
                    "text": "practitioner-qicore-qicore-practitioner",
                    "type": "reference",
                    "required": false,
                    "repeats": false
                  }
                ]
              },
              {
                "extension": [
                  {
                    "url": "http://www.healthintersections.com.au/fhir/Profile/metadata#type",
                    "valueString": "Reference"
                  }
                ],
                "linkId": "ReferralRequest.requester._organization-qicore-qicore-organization",
                "question": [
                  {
                    "extension": [
                      {
                        "url": "http://www.healthintersections.com.au/fhir/Profile/metadata#reference",
                        "valueString": "/organization-qicore-qicore-organization?subject=$subj&patient=$subj&encounter=$encounter"
                      }
                    ],
                    "linkId": "ReferralRequest.requester._organization-qicore-qicore-organization.value",
                    "text": "organization-qicore-qicore-organization",
                    "type": "reference",
                    "required": false,
                    "repeats": false
                  }
                ]
              },
              {
                "extension": [
                  {
                    "url": "http://www.healthintersections.com.au/fhir/Profile/metadata#type",
                    "valueString": "Reference"
                  }
                ],
                "linkId": "ReferralRequest.requester._patient-qicore-qicore-patient",
                "question": [
                  {
                    "extension": [
                      {
                        "url": "http://www.healthintersections.com.au/fhir/Profile/metadata#reference",
                        "valueString": "/patient-qicore-qicore-patient?subject=$subj&patient=$subj&encounter=$encounter"
                      }
                    ],
                    "linkId": "ReferralRequest.requester._patient-qicore-qicore-patient.value",
                    "text": "patient-qicore-qicore-patient",
                    "type": "reference",
                    "required": false,
                    "repeats": false
                  }
                ]
              }
            ]
          }
        ]
      },
      {
        "extension": [
          {
            "url": "http://hl7.org/fhir/Profile/questionnaire-extensions#flyover",
            "valueString": "The healthcare provider(s) or provider organization(s) who/which is to receive the referral/transfer of care request."
          }
        ],
        "linkId": "ReferralRequest.recipient",
        "text": "Receiver of referral / transfer of care request",
        "required": false,
        "repeats": true,
        "question": [
          {
            "linkId": "ReferralRequest.recipient._type",
            "text": "type",
            "type": "choice",
            "required": false,
            "repeats": false,
            "options": {
              "reference": "#vs3"
            },
            "group": [
              {
                "extension": [
                  {
                    "url": "http://www.healthintersections.com.au/fhir/Profile/metadata#type",
                    "valueString": "Reference"
                  }
                ],
                "linkId": "ReferralRequest.recipient._practitioner-qicore-qicore-practitioner",
                "question": [
                  {
                    "extension": [
                      {
                        "url": "http://www.healthintersections.com.au/fhir/Profile/metadata#reference",
                        "valueString": "/practitioner-qicore-qicore-practitioner?subject=$subj&patient=$subj&encounter=$encounter"
                      }
                    ],
                    "linkId": "ReferralRequest.recipient._practitioner-qicore-qicore-practitioner.value",
                    "text": "practitioner-qicore-qicore-practitioner",
                    "type": "reference",
                    "required": false,
                    "repeats": false
                  }
                ]
              },
              {
                "extension": [
                  {
                    "url": "http://www.healthintersections.com.au/fhir/Profile/metadata#type",
                    "valueString": "Reference"
                  }
                ],
                "linkId": "ReferralRequest.recipient._organization-qicore-qicore-organization",
                "question": [
                  {
                    "extension": [
                      {
                        "url": "http://www.healthintersections.com.au/fhir/Profile/metadata#reference",
                        "valueString": "/organization-qicore-qicore-organization?subject=$subj&patient=$subj&encounter=$encounter"
                      }
                    ],
                    "linkId": "ReferralRequest.recipient._organization-qicore-qicore-organization.value",
                    "text": "organization-qicore-qicore-organization",
                    "type": "reference",
                    "required": false,
                    "repeats": false
                  }
                ]
              }
            ]
          }
        ]
      },
      {
        "extension": [
          {
            "url": "http://hl7.org/fhir/Profile/questionnaire-extensions#flyover",
            "valueString": "The encounter at which the request for referral or transfer of care is initiated."
          },
          {
            "url": "http://www.healthintersections.com.au/fhir/Profile/metadata#type",
            "valueString": "Reference"
          }
        ],
        "linkId": "ReferralRequest.encounter",
        "required": false,
        "repeats": true,
        "question": [
          {
            "extension": [
              {
                "url": "http://www.healthintersections.com.au/fhir/Profile/metadata#reference",
                "valueString": "/encounter-qicore-qicore-encounter?subject=$subj&patient=$subj&encounter=$encounter"
              }
            ],
            "linkId": "ReferralRequest.encounter.value",
            "text": "Encounter",
            "type": "reference",
            "required": false,
            "repeats": false
          }
        ]
      },
      {
        "extension": [
          {
            "url": "http://hl7.org/fhir/Profile/questionnaire-extensions#flyover",
            "valueString": "Date/DateTime the request for referral or transfer of care is sent by the author."
          },
          {
            "url": "http://www.healthintersections.com.au/fhir/Profile/metadata#type",
            "valueString": "datetime"
          }
        ],
        "linkId": "ReferralRequest.dateSent",
        "required": false,
        "repeats": true,
        "question": [
          {
            "linkId": "ReferralRequest.dateSent.value",
            "text": "Date referral/transfer of care request is sent",
            "type": "dateTime",
            "required": false,
            "repeats": false
          }
        ]
      },
      {
        "extension": [
          {
            "url": "http://hl7.org/fhir/Profile/questionnaire-extensions#flyover",
            "valueString": "Description of clinical condition indicating why referral/transfer of care is requested."
          },
          {
            "url": "http://www.healthintersections.com.au/fhir/Profile/metadata#type",
            "valueString": "CodeableConcept"
          }
        ],
        "linkId": "ReferralRequest.reason",
        "text": "Reason for referral / Transfer of care request",
        "required": false,
        "repeats": true,
        "question": [
          {
            "linkId": "ReferralRequest.reason.coding",
            "text": "code:",
            "type": "open-choice",
            "required": false,
            "repeats": false
          },
          {
            "linkId": "ReferralRequest.reason.text",
            "text": "text:",
            "type": "string",
            "required": false,
            "repeats": false
          }
        ]
      },
      {
        "extension": [
          {
            "url": "http://hl7.org/fhir/Profile/questionnaire-extensions#flyover",
            "valueString": "The reason gives a short description of why the referral is being made, the description expands on this to support a more complete clinical summary."
          },
          {
            "url": "http://www.healthintersections.com.au/fhir/Profile/metadata#type",
            "valueString": "string"
          }
        ],
        "linkId": "ReferralRequest.description",
        "required": false,
        "repeats": true,
        "question": [
          {
            "linkId": "ReferralRequest.description.value",
            "text": "A textual description of the referral",
            "type": "string",
            "required": false,
            "repeats": false
          }
        ]
      },
      {
        "extension": [
          {
            "url": "http://hl7.org/fhir/Profile/questionnaire-extensions#flyover",
            "valueString": "The service(s) that is/are requested to be provided to the patient."
          },
          {
            "url": "http://www.healthintersections.com.au/fhir/Profile/metadata#type",
            "valueString": "CodeableConcept"
          }
        ],
        "linkId": "ReferralRequest.serviceRequested",
        "text": "Service(s) requested",
        "required": false,
        "repeats": true,
        "question": [
          {
            "linkId": "ReferralRequest.serviceRequested.coding",
            "text": "code:",
            "type": "open-choice",
            "required": false,
            "repeats": false
          },
          {
            "linkId": "ReferralRequest.serviceRequested.text",
            "text": "text:",
            "type": "string",
            "required": false,
            "repeats": false
          }
        ]
      },
      {
        "extension": [
          {
            "url": "http://hl7.org/fhir/Profile/questionnaire-extensions#flyover",
            "valueString": "Any additional (administrative, financial or clinical) information required to support request for referral or transfer of care."
          },
          {
            "url": "http://www.healthintersections.com.au/fhir/Profile/metadata#type",
            "valueString": "Reference"
          }
        ],
        "linkId": "ReferralRequest.supportingInformation",
        "required": false,
        "repeats": true,
        "question": [
          {
            "extension": [
              {
                "url": "http://www.healthintersections.com.au/fhir/Profile/metadata#reference",
                "valueString": "/Resource?subject=$subj&patient=$subj&encounter=$encounter"
              }
            ],
            "linkId": "ReferralRequest.supportingInformation.value",
            "text": "Additonal information to support referral or transfer of care request",
            "type": "reference",
            "required": false,
            "repeats": false
          }
        ]
      },
      {
        "extension": [
          {
            "url": "http://hl7.org/fhir/Profile/questionnaire-extensions#flyover",
            "valueString": "The period of time within which the services identified in the referral/transfer of care is specified or required to occur."
          },
          {
            "url": "http://www.healthintersections.com.au/fhir/Profile/metadata#type",
            "valueString": "Period"
          }
        ],
        "linkId": "ReferralRequest.fulfillmentTime",
        "text": "Requested service(s) fulfillment time",
        "required": false,
        "repeats": true,
        "question": [
          {
            "linkId": "ReferralRequest.fulfillmentTime.low",
            "text": "start:",
            "type": "dateTime",
            "required": false,
            "repeats": false
          },
          {
            "linkId": "ReferralRequest.fulfillmentTime.end",
            "text": "end:",
            "type": "dateTime",
            "required": false,
            "repeats": false
          }
        ]
      }
    ]
  }
}